File: data/xrd/S1.ASC
3.0125 110
3.0625 105
3.1125 115
3.1625 102
3.2125 96
3.2625 95
3.3125 107
3.3625 98
3.4125 87
3.4625 91
3.5125 99
3.5625 90
3.6125 93
3.6625 78
3.7125 77
3.7625 78
3.8125 82
3.8625 68
3.9125 86
3.9625 77
4.0125 59
4.0625 68
4.1125 72
4.1625 58
4.2125 64
4.2625 65
4.3125 60
4.3625 75
4.4125 56
4.4625 65
4.5125 73
4.5625 49
4.6125 49
4.6625 68
4.7125 52
4.7625 56
4.8125 51
4.8625 53
4.9125 47
4.9625 65
5.0125 48
5.0625 55
5.1125 54
5.1625 50
5.2125 42
5.2625 37
5.3125 55
5.3625 55
5.4125 53
5.4625 62
5.5125 38
5.5625 50
5.6125 43
5.6625 35
5.7125 51
5.7625 47
5.8125 45
5.8625 36
5.9125 39
5.9625 48
6.0125 52
6.0625 49
6.1125 40
6.1625 44
6.2125 37
6.2625 45
6.3125 41
6.3625 50
6.4125 44
6.4625 38
6.5125 29
6.5625 28
6.6125 30
6.6625 40
6.7125 36
6.7625 40
6.8125 35
6.8625 32
6.9125 43
6.9625 34
7.0125 45
7.0625 43
7.1125 28
7.1625 36
7.2125 32
7.2625 35
7.3125 39
7.3625 33
7.4125 34
7.4625 40
7.5125 27
7.5625 27
7.6125 34
7.6625 26
7.7125 32
7.7625 31
7.8125 35
7.8625 33
7.9125 34
7.9625 26
8.0125 34
8.0625 20
8.1125 26
8.1625 35
8.2125 31
8.2625 25
8.3125 24
8.3625 19
8.4125 24
8.4625 24
8.5125 32
8.5625 27
8.6125 23
8.6625 32
8.7125 18
8.7625 19
8.8125 31
8.8625 40
8.9125 23
8.9625 26
9.0125 21
9.0625 20
9.1125 32
9.1625 32
9.2125 34
9.2625 27
9.3125 31
9.3625 27
9.4125 30
9.4625 22
9.5125 32
9.5625 34
9.6125 35
9.6625 21
9.7125 23
9.7625 37
9.8125 20
9.8625 20
9.9125 35
9.9625 26
10.0125 33
10.0625 27
10.1125 32
10.1625 28
10.2125 26
10.2625 19
10.3125 19
10.3625 18
10.4125 27
10.4625 27
10.5125 23
10.5625 29
10.6125 26
10.6625 24
10.7125 30
10.7625 27
10.8125 26
10.8625 19
10.9125 25
10.9625 22
11.0125 29
11.0625 26
11.1125 27
11.1625 27
11.2125 23
11.2625 38
11.3125 25
11.3625 29
11.4125 18
11.4625 19
11.5125 30
11.5625 28
11.6125 35
11.6625 41
11.7125 20
11.7625 23
11.8125 33
11.8625 28
11.9125 34
11.9625 30
12.0125 23
12.0625 33
12.1125 34
12.1625 34
12.2125 25
12.2625 27
12.3125 27
12.3625 29
12.4125 27
12.4625 24
12.5125 19
12.5625 23
12.6125 24
12.6625 21
12.7125 28
12.7625 24
12.8125 28
12.8625 21
12.9125 32
12.9625 29
13.0125 30
13.0625 23
13.1125 24
13.1625 23
13.2125 28
13.2625 46
13.3125 17
13.3625 34
13.4125 20
13.4625 28
13.5125 30
13.5625 31
13.6125 21
13.6625 33
13.7125 31
13.7625 37
13.8125 19
13.8625 18
13.9125 29
13.9625 36
14.0125 30
14.0625 38
14.1125 34
14.1625 36
14.2125 25
14.2625 29
14.3125 47
14.3625 28
14.4125 43
14.4625 38
14.5125 34
14.5625 43
14.6125 38
14.6625 29
14.7125 37
14.7625 37
14.8125 38
14.8625 42
14.9125 30
14.9625 40
15.0125 36
15.0625 37
15.1125 33
15.1625 38
15.2125 37
15.2625 43
15.3125 44
15.3625 43
15.4125 36
15.4625 49
15.5125 37
15.5625 42
15.6125 47
15.6625 41
15.7125 45
15.7625 48
15.8125 39
15.8625 42
15.9125 49
15.9625 29
16.0125 39
16.0625 49
16.1125 34
16.1625 43
16.2125 36
16.2625 46
16.3125 31
16.3625 40
16.4125 39
16.4625 39
16.5125 57
16.5625 54
16.6125 52
16.6625 45
16.7125 51
16.7625 43
16.8125 30
16.8625 42
16.9125 54
16.9625 41
17.0125 53
17.0625 56
17.1125 47
17.1625 42
17.2125 58
17.2625 46
17.3125 51
17.3625 41
17.4125 65
17.4625 60
17.5125 52
17.5625 43
17.6125 38
17.6625 55
17.7125 53
17.7625 46
17.8125 59
17.8625 51
17.9125 44
17.9625 51
18.0125 63
18.0625 47
18.1125 43
18.1625 60
18.2125 60
18.2625 61
18.3125 47
18.3625 65
18.4125 62
18.4625 63
18.5125 67
18.5625 64
18.6125 49
18.6625 60
18.7125 60
18.7625 54
18.8125 76
18.8625 66
18.9125 64
18.9625 70
19.0125 78
19.0625 58
19.1125 94
19.1625 62
19.2125 76
19.2625 65
19.3125 90
19.3625 61
19.4125 66
19.4625 78
19.5125 90
19.5625 94
19.6125 72
19.6625 94
19.7125 75
19.7625 74
19.8125 78
19.8625 77
19.9125 71
19.9625 80
20.0125 79
20.0625 85
20.1125 95
20.1625 85
20.2125 78
20.2625 74
20.3125 78
20.3625 95
20.4125 80
20.4625 70
20.5125 82
20.5625 80
20.6125 70
20.6625 90
20.7125 80
20.7625 81
20.8125 86
20.8625 98
20.9125 72
20.9625 73
21.0125 94
21.0625 83
21.1125 96
21.1625 93
21.2125 59
21.2625 91
21.3125 88
21.3625 67
21.4125 108
21.4625 93
21.5125 72
21.5625 100
21.6125 89
21.6625 98
21.7125 95
21.7625 99
21.8125 96
21.8625 80
21.9125 87
21.9625 100
22.0125 85
22.0625 105
22.1125 102
22.1625 78
22.2125 112
22.2625 102
22.3125 103
22.3625 118
22.4125 103
22.4625 99
22.5125 106
22.5625 93
22.6125 95
22.6625 97
22.7125 86
22.7625 116
22.8125 99
22.8625 112
22.9125 88
22.9625 113
23.0125 104
23.0625 114
23.1125 106
23.1625 113
23.2125 111
23.2625 115
23.3125 105
23.3625 102
23.4125 91
23.4625 105
23.5125 98
23.5625 93
23.6125 107
23.6625 97
23.7125 91
23.7625 101
23.8125 96
23.8625 101
23.9125 84
23.9625 114
24.0125 70
24.0625 106
24.1125 108
24.1625 126
24.2125 105
24.2625 124
24.3125 97
24.3625 112
24.4125 103
24.4625 100
24.5125 89
24.5625 110
24.6125 107
24.6625 105
24.7125 102
24.7625 89
24.8125 92
24.8625 113
24.9125 101
24.9625 82
25.0125 103
25.0625 90
25.1125 100
25.1625 92
25.2125 99
25.2625 119
25.3125 108
25.3625 110
25.4125 96
25.4625 102
25.5125 97
25.5625 97
25.6125 94
25.6625 90
25.7125 108
25.7625 77
25.8125 103
25.8625 107
25.9125 107
25.9625 96
26.0125 90
26.0625 104
26.1125 101
26.1625 116
26.2125 97
26.2625 110
26.3125 89
26.3625 99
26.4125 84
26.4625 97
26.5125 97
26.5625 99
26.6125 113
26.6625 97
26.7125 103
26.7625 110
26.8125 107
26.8625 94
26.9125 98
26.9625 106
27.0125 109
27.0625 91
27.1125 91
27.1625 105
27.2125 100
27.2625 99
27.3125 89
27.3625 89
27.4125 104
27.4625 99
27.5125 100
27.5625 83
27.6125 89
27.6625 93
27.7125 100
27.7625 93
27.8125 87
27.8625 111
27.9125 97
27.9625 105
28.0125 93
28.0625 101
28.1125 96
28.1625 90
28.2125 82
28.2625 98
28.3125 103
28.3625 90
28.4125 88
28.4625 99
28.5125 90
28.5625 87
28.6125 94
28.6625 101
28.7125 90
28.7625 100
28.8125 97
28.8625 103
28.9125 91
28.9625 94
29.0125 109
29.0625 111
29.1125 91
29.1625 105
29.2125 100
29.2625 80
29.3125 68
29.3625 90
29.4125 86
29.4625 92
29.5125 93
29.5625 90
29.6125 91
29.6625 78
29.7125 83
29.7625 90
29.8125 77
29.8625 95
29.9125 87
29.9625 90
30.0125 97
30.0625 94
30.1125 96
30.1625 110
30.2125 76
30.2625 76
30.3125 87
30.3625 95
30.4125 82
30.4625 92
30.5125 85
30.5625 77
30.6125 83
30.6625 90
30.7125 65
30.7625 63
30.8125 66
30.8625 79
30.9125 69
30.9625 83
31.0125 82
31.0625 77
31.1125 82
31.1625 76
31.2125 70
31.2625 101
31.3125 86
31.3625 77
31.4125 67
31.4625 77
31.5125 102
31.5625 72
31.6125 88
31.6625 84
31.7125 88
31.7625 69
31.8125 78
31.8625 92
31.9125 65
31.9625 86
32.0125 106
32.0625 96
32.1125 125
32.1625 106
32.2125 104
32.2625 92
32.3125 69
32.3625 72
32.4125 71
32.4625 87
32.5125 81
32.5625 75
32.6125 74
32.6625 72
32.7125 70
32.7625 69
32.8125 70
32.8625 61
32.9125 66
32.9625 60
33.0125 86
33.0625 66
33.1125 66
33.1625 77
33.2125 89
33.2625 69
33.3125 81
33.3625 70
33.4125 57
33.4625 63
33.5125 60
33.5625 74
33.6125 60
33.6625 69
33.7125 73
33.7625 75
33.8125 71
33.8625 55
33.9125 62
33.9625 56
34.0125 57
34.0625 56
34.1125 63
34.1625 70
34.2125 51
34.2625 55
34.3125 79
34.3625 60
34.4125 57
34.4625 61
34.5125 62
34.5625 68
34.6125 74
34.6625 75
34.7125 59
34.7625 55
34.8125 58
34.8625 82
34.9125 69
34.9625 82
35.0125 63
35.0625 57
35.1125 60
35.1625 49
35.2125 57
35.2625 66
35.3125 68
35.3625 70
35.4125 45
35.4625 61
35.5125 75
35.5625 55
35.6125 50
35.6625 63
35.7125 55
35.7625 66
35.8125 61
35.8625 61
35.9125 62
35.9625 61
36.0125 42
36.0625 50
36.1125 59
36.1625 46
36.2125 67
36.2625 56
36.3125 54
36.3625 57
36.4125 64
36.4625 51
36.5125 61
36.5625 66
36.6125 58
36.6625 66
36.7125 68
36.7625 67
36.8125 64
36.8625 56
36.9125 52
36.9625 36
37.0125 36
37.0625 43
37.1125 45
37.1625 38
37.2125 53
37.2625 58
37.3125 50
37.3625 48
37.4125 40
37.4625 61
37.5125 53
37.5625 44
37.6125 31
37.6625 58
37.7125 59
37.7625 43
37.8125 56
37.8625 39
37.9125 51
37.9625 41
38.0125 57
38.0625 53
38.1125 34
38.1625 70
38.2125 49
38.2625 36
38.3125 43
38.3625 34
38.4125 56
38.4625 35
38.5125 42
38.5625 41
38.6125 39
38.6625 42
38.7125 46
38.7625 50
38.8125 45
38.8625 42
38.9125 43
38.9625 48
39.0125 46
39.0625 42
39.1125 46
39.1625 41
39.2125 65
39.2625 38
39.3125 47
39.3625 43
39.4125 40
39.4625 33
39.5125 43
39.5625 52
39.6125 44
39.6625 42
39.7125 33
39.7625 40
39.8125 34
39.8625 37
39.9125 41
39.9625 39
40.0125 42
40.0625 52
40.1125 31
40.1625 49
40.2125 42
40.2625 32
40.3125 40
40.3625 25
40.4125 50
40.4625 42
40.5125 39
40.5625 54
40.6125 51
40.6625 49
40.7125 39
40.7625 32
40.8125 50
40.8625 52
40.9125 46
40.9625 49
41.0125 32
41.0625 34
41.1125 37
41.1625 36
41.2125 45
41.2625 38
41.3125 33
41.3625 51
41.4125 38
41.4625 46
41.5125 44
41.5625 44
41.6125 45
41.6625 43
41.7125 34
41.7625 44
41.8125 51
41.8625 38
41.9125 39
41.9625 37
42.0125 49
42.0625 40
42.1125 34
42.1625 42
42.2125 43
42.2625 41
42.3125 36
42.3625 47
42.4125 43
42.4625 50
42.5125 38
42.5625 32
42.6125 39
42.6625 52
42.7125 48
42.7625 29
42.8125 50
42.8625 36
42.9125 56
42.9625 39
43.0125 48
43.0625 43
43.1125 38
43.1625 35
43.2125 44
43.2625 43
43.3125 35
43.3625 40
43.4125 47
43.4625 49
43.5125 49
43.5625 52
43.6125 40
43.6625 44
43.7125 53
43.7625 46
43.8125 39
43.8625 35
43.9125 42
43.9625 62
44.0125 31
44.0625 36
44.1125 33
44.1625 43
44.2125 40
44.2625 44
44.3125 38
44.3625 41
44.4125 41
44.4625 42
44.5125 53
44.5625 47
44.6125 41
44.6625 42
44.7125 46
44.7625 42
44.8125 29
44.8625 41
44.9125 47
44.9625 31
45.0125 38
45.0625 48
45.1125 45
45.1625 32
45.2125 39
45.2625 41
45.3125 36
45.3625 41
45.4125 35
45.4625 59
45.5125 39
45.5625 56
45.6125 40
45.6625 44
45.7125 32
45.7625 48
45.8125 56
45.8625 39
45.9125 40
45.9625 28
46.0125 42
46.0625 35
46.1125 46
46.1625 31
46.2125 44
46.2625 36
46.3125 40
46.3625 42
46.4125 26
46.4625 27
46.5125 38
46.5625 48
46.6125 34
46.6625 42
46.7125 31
46.7625 38
46.8125 39
46.8625 35
46.9125 40
46.9625 45
47.0125 43
47.0625 36
47.1125 40
47.1625 44
47.2125 47
47.2625 33
47.3125 38
47.3625 43
47.4125 44
47.4625 42
47.5125 39
47.5625 39
47.6125 41
47.6625 46
47.7125 40
47.7625 34
47.8125 35
47.8625 36
47.9125 42
47.9625 42
48.0125 35
48.0625 43
48.1125 44
48.1625 39
48.2125 39
48.2625 35
48.3125 39
48.3625 34
48.4125 37
48.4625 42
48.5125 39
48.5625 37
48.6125 47
48.6625 48
48.7125 39
48.7625 37
48.8125 23
48.8625 29
48.9125 33
48.9625 31
49.0125 35
49.0625 35
49.1125 43
49.1625 51
49.2125 37
49.2625 36
49.3125 34
49.3625 40
49.4125 41
49.4625 34
49.5125 34
49.5625 39
49.6125 43
49.6625 30
49.7125 47
49.7625 30
49.8125 32
49.8625 27
49.9125 35
49.9625 34
50.0125 36
50.0625 41
50.1125 41
50.1625 35
50.2125 35
50.2625 44
50.3125 37
50.3625 36
50.4125 27
50.4625 44
50.5125 42
50.5625 35
50.6125 37
50.6625 28
50.7125 32
50.7625 42
50.8125 34
50.8625 22
50.9125 36
50.9625 42
51.0125 31
51.0625 42
51.1125 47
51.1625 33
51.2125 32
51.2625 40
51.3125 27
51.3625 32
51.4125 43
51.4625 35
51.5125 28
51.5625 23
51.6125 33
51.6625 31
51.7125 42
51.7625 36
51.8125 32
51.8625 28
51.9125 36
51.9625 25
52.0125 33
52.0625 44
52.1125 39
52.1625 28
52.2125 30
52.2625 42
52.3125 27
52.3625 47
52.4125 30
52.4625 33
52.5125 39
52.5625 40
52.6125 29
52.6625 38
52.7125 37
52.7625 42
52.8125 31
52.8625 36
52.9125 35
52.9625 39
53.0125 26
53.0625 47
53.1125 24
53.1625 45
53.2125 32
53.2625 37
53.3125 51
53.3625 48
53.4125 35
53.4625 51
53.5125 33
53.5625 43
53.6125 25
53.6625 36
53.7125 30
53.7625 38
53.8125 42
53.8625 39
53.9125 41
53.9625 30
54.0125 44
54.0625 31
54.1125 41
54.1625 34
54.2125 35
54.2625 42
54.3125 42
54.3625 46
54.4125 38
54.4625 31
54.5125 34
54.5625 35
54.6125 28
54.6625 40
54.7125 41
54.7625 43
54.8125 28
54.8625 31
54.9125 31
54.9625 29
55.0125 31
55.0625 39
55.1125 25
55.1625 39
55.2125 34
55.2625 39
55.3125 43
55.3625 39
55.4125 40
55.4625 35
55.5125 36
55.5625 40
55.6125 48
55.6625 32
55.7125 31
55.7625 41
55.8125 25
55.8625 36
55.9125 35
55.9625 40
56.0125 33
56.0625 28
56.1125 36
56.1625 34
56.2125 35
56.2625 36
56.3125 35
56.3625 33
56.4125 34
56.4625 29
56.5125 37
56.5625 35
56.6125 49
56.6625 31
56.7125 41
56.7625 34
56.8125 41
56.8625 39
56.9125 38
56.9625 35
57.0125 42
57.0625 27
57.1125 40
57.1625 42
57.2125 45
57.2625 42
57.3125 44
57.3625 40
57.4125 25
57.4625 39
57.5125 24
57.5625 42
57.6125 50
57.6625 26
57.7125 32
57.7625 33
57.8125 38
57.8625 41
57.9125 36
57.9625 35
58.0125 39
58.0625 27
58.1125 40
58.1625 25
58.2125 37
58.2625 38
58.3125 36
58.3625 45
58.4125 36
58.4625 34
58.5125 40
58.5625 39
58.6125 31
58.6625 36
58.7125 33
58.7625 30
58.8125 27
58.8625 29
58.9125 47
58.9625 28
59.0125 28
59.0625 47
59.1125 34
59.1625 40
59.2125 40
59.2625 45
59.3125 35
59.3625 32
59.4125 34
59.4625 50
59.5125 32
59.5625 34
59.6125 37
59.6625 42
59.7125 31
59.7625 47
59.8125 48
59.8625 35
59.9125 35
59.9625 42
60.0125 44
60.0625 35
60.1125 30
60.1625 30
60.2125 33
60.2625 34
60.3125 31
60.3625 30
60.4125 38
60.4625 47
60.5125 37
60.5625 39
60.6125 47
60.6625 42
60.7125 37
60.7625 33
60.8125 33
60.8625 14
60.9125 41
60.9625 40
61.0125 32
61.0625 35
61.1125 34
61.1625 35
61.2125 33
61.2625 32
61.3125 27
61.3625 34
61.4125 25
61.4625 45
61.5125 39
61.5625 44
61.6125 43
61.6625 49
61.7125 50
61.7625 35
61.8125 34
61.8625 36
61.9125 32
61.9625 29
62.0125 29
62.0625 49
62.1125 42
62.1625 39
62.2125 36
62.2625 39
62.3125 40
62.3625 35
62.4125 40
62.4625 23
62.5125 32
62.5625 36
62.6125 45
62.6625 48
62.7125 41
62.7625 44
62.8125 35
62.8625 38
62.9125 37
62.9625 37
63.0125 33
63.0625 37
63.1125 44
63.1625 47
63.2125 37
63.2625 34
63.3125 36
63.3625 36
63.4125 36
63.4625 36
63.5125 34
63.5625 54
63.6125 40
63.6625 42
63.7125 29
63.7625 41
63.8125 30
63.8625 46
63.9125 32
63.9625 45
64.0125 28
64.0625 42
64.1125 34
64.1625 36
64.2125 34
64.2625 36
64.3125 39
64.3625 24
64.4125 28
64.4625 25
64.5125 36
64.5625 30
64.6125 42
64.6625 29
64.7125 39
64.7625 39
64.8125 35
64.8625 38
64.9125 46
64.9625 34
65.0125 35
65.0625 32
65.1125 40
65.1625 31
65.2125 37
65.2625 36
65.3125 37
65.3625 31
65.4125 37
65.4625 30
65.5125 34
65.5625 46
65.6125 20
65.6625 34
65.7125 40
65.7625 33
65.8125 36
65.8625 29
65.9125 41
65.9625 32
66.0125 30
66.0625 37
66.1125 32
66.1625 38
66.2125 44
66.2625 50
66.3125 34
66.3625 34
66.4125 34
66.4625 33
66.5125 34
66.5625 36
66.6125 34
66.6625 42
66.7125 36
66.7625 41
66.8125 38
66.8625 35
66.9125 41
66.9625 38
67.0125 30
67.0625 38
67.1125 36
67.1625 29
67.2125 28
67.2625 34
67.3125 31
67.3625 35
67.4125 26
67.4625 32
67.5125 34
67.5625 27
67.6125 54
67.6625 31
67.7125 35
67.7625 39
67.8125 46
67.8625 29
67.9125 34
67.9625 37
68.0125 29
68.0625 30
68.1125 27
68.1625 26
68.2125 26
68.2625 38
68.3125 28
68.3625 38
68.4125 33
68.4625 44
68.5125 40
68.5625 38
68.6125 25
68.6625 33
68.7125 30
68.7625 30
68.8125 34
68.8625 30
68.9125 32
68.9625 33
69.0125 42
69.0625 29
69.1125 31
69.1625 21
69.2125 30
69.2625 18
69.3125 26
69.3625 29
69.4125 28
69.4625 45
69.5125 31
69.5625 24
69.6125 33
69.6625 33
69.7125 26
69.7625 39
69.8125 36
69.8625 33
69.9125 33
69.9625 26