File: data/xrd/S2.csv
3.0125,258
3.0625,240
3.1125,209
3.1625,193
3.2125,245
3.2625,215
3.3125,206
3.3625,191
3.4125,158
3.4625,153
3.5125,176
3.5625,141
3.6125,160
3.6625,177
3.7125,140
3.7625,144
3.8125,136
3.8625,135
3.9125,120
3.9625,130
4.0125,119
4.0625,122
4.1125,106
4.1625,115
4.2125,121
4.2625,103
4.3125,101
4.3625,121
4.4125,122
4.4625,105
4.5125,92
4.5625,94
4.6125,85
4.6625,82
4.7125,74
4.7625,88
4.8125,92
4.8625,74
4.9125,73
4.9625,74
5.0125,67
5.0625,63
5.1125,75
5.1625,72
5.2125,66
5.2625,72
5.3125,62
5.3625,61
5.4125,67
5.4625,59
5.5125,63
5.5625,54
5.6125,87
5.6625,64
5.7125,57
5.7625,53
5.8125,63
5.8625,69
5.9125,51
5.9625,59
6.0125,44
6.0625,53
6.1125,33
6.1625,43
6.2125,48
6.2625,53
6.3125,41
6.3625,48
6.4125,52
6.4625,52
6.5125,49
6.5625,46
6.6125,44
6.6625,43
6.7125,52
6.7625,48
6.8125,43
6.8625,45
6.9125,48
6.9625,47
7.0125,30
7.0625,37
7.1125,41
7.1625,38
7.2125,49
7.2625,31
7.3125,42
7.3625,41
7.4125,41
7.4625,37
7.5125,32
7.5625,37
7.6125,37
7.6625,41
7.7125,27
7.7625,46
7.8125,33
7.8625,39
7.9125,35
7.9625,32
8.0125,41
8.0625,39
8.1125,39
8.1625,41
8.2125,35
8.2625,37
8.3125,41
8.3625,43
8.4125,35
8.4625,38
8.5125,40
8.5625,37
8.6125,33
8.6625,33
8.7125,42
8.7625,26
8.8125,23
8.8625,31
8.9125,31
8.9625,31
9.0125,25
9.0625,30
9.1125,28
9.1625,33
9.2125,33
9.2625,28
9.3125,38
9.3625,32
9.4125,27
9.4625,18
9.5125,38
9.5625,19
9.6125,30
9.6625,32
9.7125,21
9.7625,30
9.8125,29
9.8625,29
9.9125,33
9.9625,32
10.0125,27
10.0625,30
10.1125,31
10.1625,29
10.2125,31
10.2625,30
10.3125,30
10.3625,18
10.4125,29
10.4625,32
10.5125,31
10.5625,17
10.6125,24
10.6625,16
10.7125,33
10.7625,25
10.8125,27
10.8625,24
10.9125,29
10.9625,28
11.0125,34
11.0625,33
11.1125,30
11.1625,26
11.2125,41
11.2625,31
11.3125,26
11.3625,21
11.4125,21
11.4625,29
11.5125,30
11.5625,14
11.6125,24
11.6625,37
11.7125,30
11.7625,34
11.8125,37
11.8625,20
11.9125,18
11.9625,26
12.0125,24
12.0625,29
12.1125,28
12.1625,20
12.2125,36
12.2625,24
12.3125,20
12.3625,33
12.4125,31
12.4625,29
12.5125,20
12.5625,24
12.6125,27
12.6625,29
12.7125,28
12.7625,33
12.8125,30
12.8625,36
12.9125,20
12.9625,29
13.0125,27
13.0625,31
13.1125,27
13.1625,34
13.2125,29
13.2625,32
13.3125,20
13.3625,26
13.4125,37
13.4625,23
13.5125,30
13.5625,28
13.6125,40
13.6625,45
13.7125,41
13.7625,29
13.8125,29
13.8625,36
13.9125,21
13.9625,29
14.0125,23
14.0625,29
14.1125,30
14.1625,25
14.2125,29
14.2625,21
14.3125,45
14.3625,30
14.4125,37
14.4625,24
14.5125,33
14.5625,27
14.6125,45
14.6625,28
14.7125,26
14.7625,26
14.8125,32
14.8625,37
14.9125,21
14.9625,31
15.0125,38
15.0625,40
15.1125,30
15.1625,28
15.2125,38
15.2625,28
15.3125,32
15.3625,35
15.4125,45
15.4625,30
15.5125,32
15.5625,37
15.6125,34
15.6625,45
15.7125,55
15.7625,45
15.8125,32
15.8625,57
15.9125,49
15.9625,42
16.0125,42
16.0625,45
16.1125,39
16.1625,42
16.2125,31
16.2625,38
16.3125,48
16.3625,46
16.4125,24
16.4625,38
16.5125,43
16.5625,45
16.6125,46
16.6625,38
16.7125,46
16.7625,50
16.8125,36
16.8625,44
16.9125,40
16.9625,45
17.0125,52
17.0625,55
17.1125,52
17.1625,48
17.2125,44
17.2625,53
17.3125,45
17.3625,35
17.4125,45
17.4625,52
17.5125,43
17.5625,48
17.6125,38
17.6625,54
17.7125,55
17.7625,51
17.8125,53
17.8625,49
17.9125,51
17.9625,52
18.0125,53
18.0625,53
18.1125,51
18.1625,44
18.2125,61
18.2625,47
18.3125,66
18.3625,52
18.4125,49
18.4625,61
18.5125,69
18.5625,57
18.6125,56
18.6625,55
18.7125,62
18.7625,62
18.8125,57
18.8625,50
18.9125,55
18.9625,43
19.0125,67
19.0625,68
19.1125,75
19.1625,49
19.2125,58
19.2625,54
19.3125,69
19.3625,59
19.4125,64
19.4625,61
19.5125,82
19.5625,62
19.6125,70
19.6625,60
19.7125,66
19.7625,80
19.8125,70
19.8625,63
19.9125,80
19.9625,66
20.0125,64
20.0625,66
20.1125,62
20.1625,75
20.2125,77
20.2625,78
20.3125,67
20.3625,68
20.4125,71
20.4625,80
20.5125,87
20.5625,138
20.6125,148
20.6625,128
20.7125,76
20.7625,69
20.8125,81
20.8625,74
20.9125,89
20.9625,99
21.0125,86
21.0625,78
21.1125,78
21.1625,98
21.2125,88
21.2625,92
21.3125,99
21.3625,98
21.4125,71
21.4625,80
21.5125,103
21.5625,85
21.6125,95
21.6625,75
21.7125,84
21.7625,73
21.8125,83
21.8625,89
21.9125,103
21.9625,82
22.0125,73
22.0625,108
22.1125,87
22.1625,91
22.2125,103
22.2625,81
22.3125,89
22.3625,107
22.4125,97
22.4625,86
22.5125,75
22.5625,93
22.6125,101
22.6625,88
22.7125,87
22.7625,73
22.8125,106
22.8625,99
22.9125,91
22.9625,92
23.0125,101
23.0625,89
23.1125,87
23.1625,86
23.2125,95
23.2625,98
23.3125,84
23.3625,83
23.4125,112
23.4625,86
23.5125,95
23.5625,83
23.6125,80
23.6625,71
23.7125,101
23.7625,97
23.8125,101
23.8625,83
23.9125,94
23.9625,92
24.0125,83
24.0625,87
24.1125,99
24.1625,94
24.2125,89
24.2625,105
24.3125,89
24.3625,93
24.4125,98
24.4625,97
24.5125,100
24.5625,121
24.6125,110
24.6625,98
24.7125,90
24.7625,104
24.8125,93
24.8625,95
24.9125,96
24.9625,90
25.0125,87
25.0625,110
25.1125,90
25.1625,106
25.2125,96
25.2625,93
25.3125,103
25.3625,85
25.4125,115
25.4625,90
25.5125,103
25.5625,106
25.6125,79
25.6625,97
25.7125,92
25.7625,95
25.8125,94
25.8625,110
25.9125,86
25.9625,98
26.0125,98
26.0625,98
26.1125,83
26.1625,73
26.2125,82
26.2625,110
26.3125,83
26.3625,112
26.4125,87
26.4625,92
26.5125,112
26.5625,95
26.6125,86
26.6625,91
26.7125,82
26.7625,96
26.8125,77
26.8625,79
26.9125,91
26.9625,93
27.0125,79
27.0625,74
27.1125,103
27.1625,86
27.2125,81
27.2625,70
27.3125,77
27.3625,85
27.4125,87
27.4625,73
27.5125,85
27.5625,74
27.6125,84
27.6625,81
27.7125,90
27.7625,89
27.8125,87
27.8625,81
27.9125,98
27.9625,84
28.0125,87
28.0625,80
28.1125,86
28.1625,83
28.2125,93
28.2625,93
28.3125,89
28.3625,73
28.4125,90
28.4625,68
28.5125,91
28.5625,74
28.6125,89
28.6625,94
28.7125,75
28.7625,94
28.8125,107
28.8625,91
28.9125,88
28.9625,91
29.0125,97
29.0625,87
29.1125,89
29.1625,95
29.2125,75
29.2625,66
29.3125,84
29.3625,87
29.4125,81
29.4625,80
29.5125,94
29.5625,94
29.6125,68
29.6625,83
29.7125,100
29.7625,66
29.8125,73
29.8625,81
29.9125,76
29.9625,80
30.0125,81
30.0625,78
30.1125,83
30.1625,65
30.2125,93
30.2625,91
30.3125,88
30.3625,81
30.4125,83
30.4625,71
30.5125,78
30.5625,81
30.6125,92
30.6625,77
30.7125,70
30.7625,89
30.8125,83
30.8625,78
30.9125,84
30.9625,82
31.0125,93
31.0625,85
31.1125,77
31.1625,81
31.2125,97
31.2625,83
31.3125,69
31.3625,79
31.4125,78
31.4625,90
31.5125,106
31.5625,65
31.6125,86
31.6625,78
31.7125,85
31.7625,93
31.8125,90
31.8625,101
31.9125,99
31.9625,120
32.0125,136
32.0625,127
32.1125,151
32.1625,140
32.2125,141
32.2625,122
32.3125,135
32.3625,125
32.4125,108
32.4625,106
32.5125,90
32.5625,83
32.6125,85
32.6625,70
32.7125,79
32.7625,83
32.8125,80
32.8625,99
32.9125,89
32.9625,68
33.0125,78
33.0625,67
33.1125,79
33.1625,61
33.2125,73
33.2625,70
33.3125,66
33.3625,80
33.4125,69
33.4625,60
33.5125,76
33.5625,64
33.6125,81
33.6625,62
33.7125,77
33.7625,77
33.8125,70
33.8625,71
33.9125,75
33.9625,62
34.0125,61
34.0625,70
34.1125,61
34.1625,81
34.2125,58
34.2625,70
34.3125,62
34.3625,70
34.4125,74
34.4625,77
34.5125,71
34.5625,87
34.6125,96
34.6625,137
34.7125,165
34.7625,227
34.8125,319
34.8625,288
34.9125,207
34.9625,149
35.0125,114
35.0625,92
35.1125,72
35.1625,83
35.2125,66
35.2625,68
35.3125,67
35.3625,57
35.4125,61
35.4625,43
35.5125,66
35.5625,51
35.6125,58
35.6625,62
35.7125,60
35.7625,73
35.8125,59
35.8625,60
35.9125,62
35.9625,65
36.0125,75
36.0625,66
36.1125,70
36.1625,60
36.2125,73
36.2625,77
36.3125,90
36.3625,76
36.4125,127
36.4625,103
36.5125,139
36.5625,154
36.6125,193
36.6625,220
36.7125,179
36.7625,153
36.8125,166
36.8625,139
36.9125,96
36.9625,78
37.0125,70
37.0625,59
37.1125,75
37.1625,73
37.2125,56
37.2625,49
37.3125,62
37.3625,53
37.4125,52
37.4625,48
37.5125,60
37.5625,43
37.6125,44
37.6625,51
37.7125,61
37.7625,46
37.8125,47
37.8625,53
37.9125,44
37.9625,47
38.0125,48
38.0625,40
38.1125,48
38.1625,52
38.2125,47
38.2625,49
38.3125,46
38.3625,50
38.4125,43
38.4625,50
38.5125,36
38.5625,39
38.6125,41
38.6625,55
38.7125,46
38.7625,34
38.8125,47
38.8625,43
38.9125,42
38.9625,36
39.0125,48
39.0625,46
39.1125,40
39.1625,45
39.2125,33
39.2625,40
39.3125,42
39.3625,41
39.4125,45
39.4625,46
39.5125,47
39.5625,24
39.6125,37
39.6625,42
39.7125,41
39.7625,37
39.8125,34
39.8625,52
39.9125,42
39.9625,34
40.0125,28
40.0625,43
40.1125,46
40.1625,47
40.2125,54
40.2625,39
40.3125,31
40.3625,33
40.4125,33
40.4625,42
40.5125,36
40.5625,38
40.6125,45
40.6625,40
40.7125,40
40.7625,46
40.8125,33
40.8625,34
40.9125,43
40.9625,40
41.0125,35
41.0625,33
41.1125,43
41.1625,49
41.2125,43
41.2625,41
41.3125,37
41.3625,43
41.4125,36
41.4625,45
41.5125,32
41.5625,53
41.6125,25
41.6625,41
41.7125,37
41.7625,42
41.8125,28
41.8625,41
41.9125,38
41.9625,34
42.0125,33
42.0625,45
42.1125,34
42.1625,46
42.2125,47
42.2625,38
42.3125,47
42.3625,36
42.4125,36
42.4625,44
42.5125,37
42.5625,46
42.6125,44
42.6625,48
42.7125,49
42.7625,39
42.8125,50
42.8625,40
42.9125,41
42.9625,40
43.0125,42
43.0625,43
43.1125,36
43.1625,43
43.2125,48
43.2625,48
43.3125,37
43.3625,46
43.4125,51
43.4625,34
43.5125,32
43.5625,29
43.6125,46
43.6625,35
43.7125,45
43.7625,40
43.8125,50
43.8625,36
43.9125,35
43.9625,61
44.0125,34
44.0625,51
44.1125,33
44.1625,42
44.2125,40
44.2625,33
44.3125,45
44.3625,40
44.4125,37
44.4625,47
44.5125,46
44.5625,28
44.6125,47
44.6625,33
44.7125,54
44.7625,46
44.8125,40
44.8625,43
44.9125,35
44.9625,38
45.0125,40
45.0625,42
45.1125,43
45.1625,42
45.2125,31
45.2625,45
45.3125,36
45.3625,43
45.4125,37
45.4625,34
45.5125,23
45.5625,40
45.6125,45
45.6625,42
45.7125,35
45.7625,37
45.8125,38
45.8625,44
45.9125,35
45.9625,30
46.0125,41
46.0625,38
46.1125,31
46.1625,49
46.2125,43
46.2625,27
46.3125,38
46.3625,45
46.4125,41
46.4625,38
46.5125,43
46.5625,46
46.6125,28
46.6625,35
46.7125,37
46.7625,46
46.8125,36
46.8625,49
46.9125,38
46.9625,49
47.0125,39
47.0625,47
47.1125,39
47.1625,24
47.2125,40
47.2625,43
47.3125,43
47.3625,40
47.4125,44
47.4625,39
47.5125,38
47.5625,43
47.6125,36
47.6625,49
47.7125,52
47.7625,42
47.8125,61
47.8625,55
47.9125,48
47.9625,66
48.0125,66
48.0625,57
48.1125,51
48.1625,53
48.2125,47
48.2625,33
48.3125,38
48.3625,41
48.4125,37
48.4625,29
48.5125,35
48.5625,44
48.6125,47
48.6625,39
48.7125,43
48.7625,26
48.8125,45
48.8625,29
48.9125,38
48.9625,44
49.0125,41
49.0625,40
49.1125,39
49.1625,43
49.2125,34
49.2625,31
49.3125,29
49.3625,30
49.4125,42
49.4625,34
49.5125,29
49.5625,31
49.6125,32
49.6625,37
49.7125,43
49.7625,32
49.8125,30
49.8625,38
49.9125,26
49.9625,35
50.0125,46
50.0625,38
50.1125,33
50.1625,32
50.2125,24
50.2625,49
50.3125,41
50.3625,47
50.4125,37
50.4625,25
50.5125,35
50.5625,27
50.6125,37
50.6625,29
50.7125,42
50.7625,23
50.8125,30
50.8625,31
50.9125,31
50.9625,29
51.0125,35
51.0625,20
51.1125,37
51.1625,39
51.2125,29
51.2625,32
51.3125,46
51.3625,40
51.4125,39
51.4625,41
51.5125,40
51.5625,34
51.6125,23
51.6625,23
51.7125,40
51.7625,38
51.8125,33
51.8625,46
51.9125,33
51.9625,27
52.0125,29
52.0625,39
52.1125,30
52.1625,31
52.2125,32
52.2625,33
52.3125,47
52.3625,39
52.4125,34
52.4625,29
52.5125,35
52.5625,38
52.6125,35
52.6625,25
52.7125,35
52.7625,32
52.8125,32
52.8625,32
52.9125,34
52.9625,38
53.0125,27
53.0625,35
53.1125,33
53.1625,32
53.2125,28
53.2625,37
53.3125,44
53.3625,36
53.4125,29
53.4625,31
53.5125,39
53.5625,34
53.6125,33
53.6625,36
53.7125,37
53.7625,40
53.8125,42
53.8625,38
53.9125,26
53.9625,43
54.0125,46
54.0625,35
54.1125,44
54.1625,24
54.2125,54
54.2625,40
54.3125,37
54.3625,43
54.4125,37
54.4625,35
54.5125,39
54.5625,35
54.6125,33
54.6625,38
54.7125,28
54.7625,33
54.8125,31
54.8625,32
54.9125,36
54.9625,31
55.0125,27
55.0625,33
55.1125,25
55.1625,40
55.2125,32
55.2625,43
55.3125,31
55.3625,36
55.4125,38
55.4625,25
55.5125,35
55.5625,50
55.6125,35
55.6625,22
55.7125,39
55.7625,29
55.8125,30
55.8625,24
55.9125,38
55.9625,43
56.0125,35
56.0625,42
56.1125,32
56.1625,35
56.2125,38
56.2625,26
56.3125,50
56.3625,34
56.4125,47
56.4625,44
56.5125,31
56.5625,30
56.6125,49
56.6625,49
56.7125,45
56.7625,48
56.8125,39
56.8625,56
56.9125,61
56.9625,59
57.0125,55
57.0625,62
57.1125,40
57.1625,41
57.2125,35
57.2625,54
57.3125,38
57.3625,44
57.4125,33
57.4625,44
57.5125,48
57.5625,42
57.6125,53
57.6625,29
57.7125,42
57.7625,38
57.8125,34
57.8625,42
57.9125,28
57.9625,38
58.0125,35
58.0625,37
58.1125,40
58.1625,45
58.2125,42
58.2625,59
58.3125,28
58.3625,48
58.4125,38
58.4625,28
58.5125,39
58.5625,35
58.6125,37
58.6625,36
58.7125,42
58.7625,34
58.8125,31
58.8625,37
58.9125,31
58.9625,34
59.0125,30
59.0625,39
59.1125,29
59.1625,30
59.2125,32
59.2625,34
59.3125,27
59.3625,44
59.4125,31
59.4625,41
59.5125,31
59.5625,40
59.6125,40
59.6625,31
59.7125,41
59.7625,32
59.8125,43
59.8625,31
59.9125,42
59.9625,36
60.0125,46
60.0625,30
60.1125,43
60.1625,45
60.2125,41
60.2625,51
60.3125,41
60.3625,33
60.4125,36
60.4625,40
60.5125,32
60.5625,34
60.6125,36
60.6625,44
60.7125,30
60.7625,27
60.8125,38
60.8625,39
60.9125,26
60.9625,46
61.0125,31
61.0625,36
61.1125,26
61.1625,48
61.2125,37
61.2625,37
61.3125,35
61.3625,26
61.4125,44
61.4625,35
61.5125,33
61.5625,30
61.6125,37
61.6625,32
61.7125,33
61.7625,55
61.8125,35
61.8625,37
61.9125,55
61.9625,33
62.0125,44
62.0625,37
62.1125,34
62.1625,44
62.2125,29
62.2625,39
62.3125,34
62.3625,41
62.4125,30
62.4625,29
62.5125,38
62.5625,43
62.6125,36
62.6625,42
62.7125,27
62.7625,44
62.8125,23
62.8625,43
62.9125,47
62.9625,50
63.0125,31
63.0625,60
63.1125,68
63.1625,65
63.2125,56
63.2625,58
63.3125,54
63.3625,57
63.4125,64
63.4625,44
63.5125,53
63.5625,46
63.6125,40
63.6625,45
63.7125,36
63.7625,57
63.8125,32
63.8625,37
63.9125,59
63.9625,42
64.0125,35
64.0625,39
64.1125,35
64.1625,39
64.2125,31
64.2625,40
64.3125,30
64.3625,31
64.4125,43
64.4625,43
64.5125,38
64.5625,35
64.6125,35
64.6625,47
64.7125,35
64.7625,33
64.8125,33
64.8625,38
64.9125,44
64.9625,33
65.0125,35
65.0625,36
65.1125,43
65.1625,34
65.2125,33
65.2625,29
65.3125,41
65.3625,37
65.4125,31
65.4625,35
65.5125,45
65.5625,41
65.6125,31
65.6625,40
65.7125,30
65.7625,38
65.8125,21
65.8625,38
65.9125,28
65.9625,18
66.0125,37
66.0625,37
66.1125,25
66.1625,39
66.2125,32
66.2625,34
66.3125,30
66.3625,39
66.4125,37
66.4625,23
66.5125,32
66.5625,37
66.6125,33
66.6625,29
66.7125,32
66.7625,36
66.8125,38
66.8625,42
66.9125,34
66.9625,41
67.0125,42
67.0625,46
67.1125,36
67.1625,27
67.2125,40
67.2625,37
67.3125,22
67.3625,37
67.4125,39
67.4625,32
67.5125,31
67.5625,37
67.6125,22
67.6625,38
67.7125,34
67.7625,52
67.8125,40
67.8625,42
67.9125,36
67.9625,45
68.0125,47
68.0625,52
68.1125,45
68.1625,42
68.2125,41
68.2625,43
68.3125,50
68.3625,58
68.4125,46
68.4625,46
68.5125,46
68.5625,50
68.6125,38
68.6625,36
68.7125,42
68.7625,42
68.8125,30
68.8625,44
68.9125,44
68.9625,32
69.0125,32
69.0625,30
69.1125,27
69.1625,34
69.2125,32
69.2625,44
69.3125,39
69.3625,42
69.4125,40
69.4625,35
69.5125,32
69.5625,41
69.6125,30
69.6625,41
69.7125,40
69.7625,46
69.8125,36
69.8625,32
69.9125,28
69.9625,22