File: data/xrd/S3.csv
3.0125,150
3.0625,167
3.1125,122
3.1625,131
3.2125,140
3.2625,117
3.3125,127
3.3625,120
3.4125,96
3.4625,106
3.5125,97
3.5625,99
3.6125,77
3.6625,92
3.7125,98
3.7625,105
3.8125,80
3.8625,71
3.9125,75
3.9625,79
4.0125,87
4.0625,69
4.1125,66
4.1625,65
4.2125,83
4.2625,61
4.3125,69
4.3625,63
4.4125,52
4.4625,54
4.5125,54
4.5625,62
4.6125,60
4.6625,51
4.7125,58
4.7625,73
4.8125,52
4.8625,60
4.9125,67
4.9625,48
5.0125,62
5.0625,45
5.1125,52
5.1625,62
5.2125,27
5.2625,54
5.3125,54
5.3625,50
5.4125,54
5.4625,50
5.5125,49
5.5625,58
5.6125,60
5.6625,31
5.7125,43
5.7625,43
5.8125,36
5.8625,41
5.9125,44
5.9625,26
6.0125,35
6.0625,45
6.1125,33
6.1625,38
6.2125,33
6.2625,33
6.3125,36
6.3625,37
6.4125,36
6.4625,25
6.5125,30
6.5625,44
6.6125,37
6.6625,34
6.7125,38
6.7625,33
6.8125,22
6.8625,36
6.9125,21
6.9625,45
7.0125,38
7.0625,30
7.1125,31
7.1625,26
7.2125,33
7.2625,35
7.3125,30
7.3625,23
7.4125,31
7.4625,24
7.5125,33
7.5625,31
7.6125,33
7.6625,29
7.7125,30
7.7625,31
7.8125,29
7.8625,19
7.9125,21
7.9625,28
8.0125,33
8.0625,36
8.1125,28
8.1625,27
8.2125,31
8.2625,32
8.3125,24
8.3625,25
8.4125,26
8.4625,26
8.5125,24
8.5625,26
8.6125,27
8.6625,18
8.7125,25
8.7625,25
8.8125,24
8.8625,25
8.9125,31
8.9625,27
9.0125,24
9.0625,20
9.1125,26
9.1625,33
9.2125,22
9.2625,12
9.3125,26
9.3625,25
9.4125,26
9.4625,26
9.5125,22
9.5625,20
9.6125,17
9.6625,24
9.7125,22
9.7625,28
9.8125,19
9.8625,24
9.9125,32
9.9625,19
10.0125,16
10.0625,18
10.1125,29
10.1625,22
10.2125,28
10.2625,27
10.3125,21
10.3625,25
10.4125,29
10.4625,32
10.5125,17
10.5625,20
10.6125,20
10.6625,32
10.7125,25
10.7625,26
10.8125,14
10.8625,30
10.9125,21
10.9625,30
11.0125,18
11.0625,11
11.1125,18
11.1625,23
11.2125,23
11.2625,22
11.3125,21
11.3625,17
11.4125,17
11.4625,26
11.5125,25
11.5625,18
11.6125,32
11.6625,24
11.7125,21
11.7625,27
11.8125,27
11.8625,22
11.9125,22
11.9625,22
12.0125,20
12.0625,27
12.1125,28
12.1625,15
12.2125,30
12.2625,10
12.3125,25
12.3625,24
12.4125,27
12.4625,22
12.5125,18
12.5625,26
12.6125,29
12.6625,25
12.7125,19
12.7625,35
12.8125,22
12.8625,14
12.9125,27
12.9625,27
13.0125,22
13.0625,35
13.1125,28
13.1625,32
13.2125,31
13.2625,23
13.3125,28
13.3625,34
13.4125,18
13.4625,31
13.5125,23
13.5625,25
13.6125,15
13.6625,23
13.7125,34
13.7625,21
13.8125,20
13.8625,27
13.9125,15
13.9625,21
14.0125,30
14.0625,21
14.1125,29
14.1625,40
14.2125,29
14.2625,34
14.3125,27
14.3625,18
14.4125,26
14.4625,29
14.5125,26
14.5625,21
14.6125,38
14.6625,33
14.7125,19
14.7625,28
14.8125,28
14.8625,19
14.9125,23
14.9625,27
15.0125,26
15.0625,19
15.1125,23
15.1625,25
15.2125,19
15.2625,27
15.3125,36
15.3625,33
15.4125,25
15.4625,35
15.5125,34
15.5625,31
15.6125,32
15.6625,36
15.7125,37
15.7625,29
15.8125,24
15.8625,36
15.9125,38
15.9625,38
16.0125,38
16.0625,31
16.1125,36
16.1625,25
16.2125,38
16.2625,42
16.3125,34
16.3625,39
16.4125,30
16.4625,31
16.5125,40
16.5625,37
16.6125,40
16.6625,41
16.7125,45
16.7625,39
16.8125,43
16.8625,33
16.9125,48
16.9625,40
17.0125,49
17.0625,35
17.1125,36
17.1625,48
17.2125,39
17.2625,44
17.3125,44
17.3625,45
17.4125,46
17.4625,42
17.5125,42
17.5625,49
17.6125,52
17.6625,49
17.7125,50
17.7625,44
17.8125,50
17.8625,47
17.9125,47
17.9625,47
18.0125,53
18.0625,61
18.1125,58
18.1625,44
18.2125,51
18.2625,50
18.3125,52
18.3625,53
18.4125,63
18.4625,52
18.5125,44
18.5625,45
18.6125,53
18.6625,42
18.7125,56
18.7625,68
18.8125,65
18.8625,60
18.9125,66
18.9625,50
19.0125,45
19.0625,52
19.1125,52
19.1625,60
19.2125,58
19.2625,61
19.3125,56
19.3625,53
19.4125,67
19.4625,51
19.5125,55
19.5625,58
19.6125,69
19.6625,61
19.7125,59
19.7625,67
19.8125,53
19.8625,76
19.9125,67
19.9625,68
20.0125,63
20.0625,53
20.1125,65
20.1625,65
20.2125,63
20.2625,68
20.3125,70
20.3625,71
20.4125,75
20.4625,68
20.5125,85
20.5625,69
20.6125,68
20.6625,61
20.7125,66
20.7625,66
20.8125,78
20.8625,83
20.9125,64
20.9625,73
21.0125,71
21.0625,66
21.1125,66
21.1625,74
21.2125,76
21.2625,79
21.3125,80
21.3625,91
21.4125,78
21.4625,76
21.5125,80
21.5625,83
21.6125,70
21.6625,79
21.7125,84
21.7625,66
21.8125,80
21.8625,87
21.9125,90
21.9625,85
22.0125,71
22.0625,91
22.1125,88
22.1625,86
22.2125,84
22.2625,78
22.3125,92
22.3625,71
22.4125,88
22.4625,105
22.5125,94
22.5625,68
22.6125,92
22.6625,85
22.7125,76
22.7625,88
22.8125,94
22.8625,81
22.9125,86
22.9625,84
23.0125,75
23.0625,81
23.1125,106
23.1625,105
23.2125,79
23.2625,78
23.3125,69
23.3625,91
23.4125,84
23.4625,87
23.5125,84
23.5625,75
23.6125,87
23.6625,88
23.7125,89
23.7625,89
23.8125,101
23.8625,82
23.9125,90
23.9625,96
24.0125,85
24.0625,84
24.1125,91
24.1625,89
24.2125,84
24.2625,105
24.3125,91
24.3625,93
24.4125,81
24.4625,85
24.5125,79
24.5625,78
24.6125,91
24.6625,90
24.7125,88
24.7625,99
24.8125,107
24.8625,92
24.9125,90
24.9625,106
25.0125,83
25.0625,79
25.1125,96
25.1625,101
25.2125,77
25.2625,78
25.3125,102
25.3625,89
25.4125,105
25.4625,92
25.5125,81
25.5625,90
25.6125,92
25.6625,102
25.7125,89
25.7625,87
25.8125,105
25.8625,98
25.9125,92
25.9625,88
26.0125,86
26.0625,75
26.1125,84
26.1625,81
26.2125,100
26.2625,85
26.3125,85
26.3625,83
26.4125,82
26.4625,102
26.5125,73
26.5625,93
26.6125,71
26.6625,94
26.7125,90
26.7625,91
26.8125,70
26.8625,80
26.9125,79
26.9625,69
27.0125,91
27.0625,81
27.1125,81
27.1625,96
27.2125,94
27.2625,94
27.3125,84
27.3625,91
27.4125,76
27.4625,97
27.5125,92
27.5625,73
27.6125,84
27.6625,71
27.7125,92
27.7625,82
27.8125,58
27.8625,83
27.9125,75
27.9625,74
28.0125,84
28.0625,85
28.1125,102
28.1625,80
28.2125,82
28.2625,68
28.3125,70
28.3625,80
28.4125,84
28.4625,61
28.5125,87
28.5625,68
28.6125,88
28.6625,100
28.7125,80
28.7625,82
28.8125,69
28.8625,74
28.9125,84
28.9625,98
29.0125,84
29.0625,77
29.1125,57
29.1625,85
29.2125,89
29.2625,68
29.3125,85
29.3625,75
29.4125,87
29.4625,72
29.5125,75
29.5625,93
29.6125,66
29.6625,74
29.7125,83
29.7625,79
29.8125,75
29.8625,70
29.9125,72
29.9625,76
30.0125,83
30.0625,80
30.1125,75
30.1625,70
30.2125,83
30.2625,82
30.3125,74
30.3625,69
30.4125,89
30.4625,85
30.5125,82
30.5625,85
30.6125,77
30.6625,77
30.7125,57
30.7625,79
30.8125,73
30.8625,71
30.9125,72
30.9625,75
31.0125,91
31.0625,64
31.1125,71
31.1625,66
31.2125,77
31.2625,67
31.3125,79
31.3625,72
31.4125,79
31.4625,80
31.5125,69
31.5625,75
31.6125,63
31.6625,72
31.7125,78
31.7625,74
31.8125,80
31.8625,89
31.9125,81
31.9625,93
32.0125,100
32.0625,160
32.1125,204
32.1625,220
32.2125,199
32.2625,201
32.3125,196
32.3625,160
32.4125,127
32.4625,119
32.5125,117
32.5625,71
32.6125,83
32.6625,67
32.7125,65
32.7625,70
32.8125,64
32.8625,75
32.9125,59
32.9625,74
33.0125,70
33.0625,69
33.1125,68
33.1625,62
33.2125,74
33.2625,53
33.3125,61
33.3625,54
33.4125,62
33.4625,65
33.5125,62
33.5625,61
33.6125,70
33.6625,71
33.7125,69
33.7625,73
33.8125,60
33.8625,66
33.9125,59
33.9625,65
34.0125,71
34.0625,75
34.1125,61
34.1625,67
34.2125,73
34.2625,83
34.3125,66
34.3625,80
34.4125,83
34.4625,86
34.5125,90
34.5625,95
34.6125,130
34.6625,152
34.7125,208
34.7625,335
34.8125,447
34.8625,514
34.9125,473
34.9625,426
35.0125,279
35.0625,210
35.1125,127
35.1625,119
35.2125,94
35.2625,87
35.3125,90
35.3625,64
35.4125,64
35.4625,55
35.5125,66
35.5625,51
35.6125,53
35.6625,57
35.7125,50
35.7625,55
35.8125,81
35.8625,61
35.9125,52
35.9625,69
36.0125,64
36.0625,69
36.1125,64
36.1625,59
36.2125,66
36.2625,82
36.3125,79
36.3625,105
36.4125,105
36.4625,150
36.5125,190
36.5625,242
36.6125,294
36.6625,346
36.7125,341
36.7625,345
36.8125,252
36.8625,186
36.9125,192
36.9625,123
37.0125,94
37.0625,83
37.1125,70
37.1625,56
37.2125,55
37.2625,53
37.3125,52
37.3625,56
37.4125,49
37.4625,42
37.5125,39
37.5625,49
37.6125,41
37.6625,47
37.7125,53
37.7625,39
37.8125,42
37.8625,43
37.9125,42
37.9625,42
38.0125,35
38.0625,39
38.1125,45
38.1625,36
38.2125,36
38.2625,44
38.3125,34
38.3625,45
38.4125,52
38.4625,42
38.5125,37
38.5625,34
38.6125,45
38.6625,42
38.7125,47
38.7625,45
38.8125,32
38.8625,38
38.9125,46
38.9625,48
39.0125,51
39.0625,40
39.1125,43
39.1625,47
39.2125,40
39.2625,34
39.3125,46
39.3625,37
39.4125,40
39.4625,40
39.5125,36
39.5625,37
39.6125,33
39.6625,31
39.7125,41
39.7625,50
39.8125,43
39.8625,45
39.9125,46
39.9625,29
40.0125,40
40.0625,47
40.1125,45
40.1625,51
40.2125,33
40.2625,34
40.3125,33
40.3625,39
40.4125,43
40.4625,38
40.5125,39
40.5625,48
40.6125,39
40.6625,46
40.7125,46
40.7625,40
40.8125,45
40.8625,41
40.9125,36
40.9625,43
41.0125,28
41.0625,37
41.1125,43
41.1625,35
41.2125,38
41.2625,37
41.3125,41
41.3625,48
41.4125,42
41.4625,35
41.5125,47
41.5625,40
41.6125,24
41.6625,36
41.7125,42
41.7625,31
41.8125,47
41.8625,35
41.9125,50
41.9625,40
42.0125,48
42.0625,44
42.1125,30
42.1625,30
42.2125,46
42.2625,30
42.3125,46
42.3625,44
42.4125,41
42.4625,54
42.5125,43
42.5625,41
42.6125,35
42.6625,40
42.7125,38
42.7625,38
42.8125,34
42.8625,45
42.9125,44
42.9625,47
43.0125,39
43.0625,25
43.1125,44
43.1625,45
43.2125,41
43.2625,47
43.3125,41
43.3625,36
43.4125,60
43.4625,46
43.5125,40
43.5625,28
43.6125,37
43.6625,49
43.7125,42
43.7625,38
43.8125,31
43.8625,47
43.9125,39
43.9625,23
44.0125,52
44.0625,25
44.1125,38
44.1625,41
44.2125,36
44.2625,40
44.3125,37
44.3625,32
44.4125,39
44.4625,43
44.5125,33
44.5625,37
44.6125,40
44.6625,37
44.7125,33
44.7625,37
44.8125,28
44.8625,40
44.9125,44
44.9625,31
45.0125,24
45.0625,33
45.1125,39
45.1625,42
45.2125,37
45.2625,44
45.3125,40
45.3625,42
45.4125,39
45.4625,33
45.5125,27
45.5625,50
45.6125,28
45.6625,37
45.7125,32
45.7625,32
45.8125,39
45.8625,30
45.9125,26
45.9625,32
46.0125,48
46.0625,35
46.1125,29
46.1625,36
46.2125,33
46.2625,35
46.3125,34
46.3625,40
46.4125,41
46.4625,39
46.5125,27
46.5625,45
46.6125,39
46.6625,41
46.7125,29
46.7625,39
46.8125,49
46.8625,44
46.9125,32
46.9625,24
47.0125,45
47.0625,42
47.1125,39
47.1625,34
47.2125,32
47.2625,36
47.3125,48
47.3625,37
47.4125,43
47.4625,35
47.5125,43
47.5625,38
47.6125,51
47.6625,24
47.7125,53
47.7625,49
47.8125,59
47.8625,71
47.9125,71
47.9625,77
48.0125,60
48.0625,63
48.1125,72
48.1625,58
48.2125,68
48.2625,40
48.3125,53
48.3625,44
48.4125,46
48.4625,48
48.5125,44
48.5625,33
48.6125,34
48.6625,36
48.7125,26
48.7625,39
48.8125,32
48.8625,43
48.9125,40
48.9625,29
49.0125,25
49.0625,32
49.1125,31
49.1625,30
49.2125,33
49.2625,33
49.3125,26
49.3625,28
49.4125,38
49.4625,37
49.5125,41
49.5625,39
49.6125,39
49.6625,29
49.7125,33
49.7625,37
49.8125,37
49.8625,39
49.9125,41
49.9625,32
50.0125,25
50.0625,37
50.1125,29
50.1625,31
50.2125,49
50.2625,26
50.3125,40
50.3625,35
50.4125,32
50.4625,32
50.5125,31
50.5625,42
50.6125,35
50.6625,33
50.7125,38
50.7625,35
50.8125,33
50.8625,33
50.9125,32
50.9625,36
51.0125,43
51.0625,32
51.1125,33
51.1625,36
51.2125,31
51.2625,26
51.3125,33
51.3625,42
51.4125,38
51.4625,25
51.5125,42
51.5625,34
51.6125,32
51.6625,32
51.7125,47
51.7625,31
51.8125,38
51.8625,30
51.9125,24
51.9625,35
52.0125,35
52.0625,23
52.1125,32
52.1625,35
52.2125,38
52.2625,41
52.3125,22
52.3625,39
52.4125,27
52.4625,36
52.5125,42
52.5625,33
52.6125,25
52.6625,23
52.7125,27
52.7625,34
52.8125,34
52.8625,31
52.9125,32
52.9625,23
53.0125,30
53.0625,27
53.1125,31
53.1625,29
53.2125,27
53.2625,34
53.3125,26
53.3625,35
53.4125,29
53.4625,32
53.5125,32
53.5625,34
53.6125,30
53.6625,28
53.7125,38
53.7625,25
53.8125,35
53.8625,36
53.9125,34
53.9625,32
54.0125,42
54.0625,31
54.1125,29
54.1625,36
54.2125,32
54.2625,42
54.3125,25
54.3625,36
54.4125,35
54.4625,25
54.5125,28
54.5625,30
54.6125,37
54.6625,46
54.7125,29
54.7625,33
54.8125,33
54.8625,36
54.9125,30
54.9625,27
55.0125,21
55.0625,36
55.1125,33
55.1625,33
55.2125,29
55.2625,26
55.3125,35
55.3625,43
55.4125,28
55.4625,29
55.5125,39
55.5625,31
55.6125,28
55.6625,31
55.7125,35
55.7625,33
55.8125,29
55.8625,42
55.9125,23
55.9625,25
56.0125,39
56.0625,41
56.1125,38
56.1625,37
56.2125,30
56.2625,50
56.3125,37
56.3625,31
56.4125,47
56.4625,32
56.5125,30
56.5625,30
56.6125,46
56.6625,41
56.7125,41
56.7625,48
56.8125,53
56.8625,50
56.9125,60
56.9625,74
57.0125,54
57.0625,82
57.1125,64
57.1625,62
57.2125,65
57.2625,54
57.3125,43
57.3625,49
57.4125,41
57.4625,30
57.5125,32
57.5625,29
57.6125,34
57.6625,39
57.7125,25
57.7625,38
57.8125,37
57.8625,32
57.9125,35
57.9625,33
58.0125,29
58.0625,28
58.1125,29
58.1625,26
58.2125,29
58.2625,30
58.3125,36
58.3625,29
58.4125,34
58.4625,35
58.5125,44
58.5625,24
58.6125,34
58.6625,28
58.7125,31
58.7625,35
58.8125,40
58.8625,31
58.9125,38
58.9625,31
59.0125,41
59.0625,40
59.1125,25
59.1625,41
59.2125,38
59.2625,24
59.3125,35
59.3625,25
59.4125,41
59.4625,32
59.5125,27
59.5625,32
59.6125,35
59.6625,28
59.7125,35
59.7625,30
59.8125,32
59.8625,32
59.9125,41
59.9625,33
60.0125,32
60.0625,37
60.1125,33
60.1625,35
60.2125,28
60.2625,27
60.3125,24
60.3625,32
60.4125,40
60.4625,34
60.5125,36
60.5625,38
60.6125,30
60.6625,41
60.7125,34
60.7625,43
60.8125,38
60.8625,42
60.9125,28
60.9625,41
61.0125,39
61.0625,43
61.1125,38
61.1625,38
61.2125,39
61.2625,30
61.3125,37
61.3625,28
61.4125,32
61.4625,35
61.5125,40
61.5625,36
61.6125,52
61.6625,36
61.7125,28
61.7625,42
61.8125,32
61.8625,25
61.9125,34
61.9625,36
62.0125,22
62.0625,38
62.1125,45
62.1625,44
62.2125,38
62.2625,30
62.3125,36
62.3625,33
62.4125,37
62.4625,32
62.5125,40
62.5625,29
62.6125,37
62.6625,35
62.7125,47
62.7625,35
62.8125,44
62.8625,46
62.9125,50
62.9625,45
63.0125,60
63.0625,71
63.1125,70
63.1625,53
63.2125,61
63.2625,53
63.3125,63
63.3625,60
63.4125,83
63.4625,56
63.5125,58
63.5625,48
63.6125,49
63.6625,44
63.7125,41
63.7625,47
63.8125,39
63.8625,39
63.9125,44
63.9625,25
64.0125,49
64.0625,34
64.1125,35
64.1625,36
64.2125,33
64.2625,47
64.3125,27
64.3625,37
64.4125,28
64.4625,30
64.5125,28
64.5625,33
64.6125,28
64.6625,40
64.7125,45
64.7625,27
64.8125,32
64.8625,35
64.9125,37
64.9625,37
65.0125,45
65.0625,21
65.1125,33
65.1625,51
65.2125,25
65.2625,43
65.3125,33
65.3625,31
65.4125,25
65.4625,38
65.5125,32
65.5625,33
65.6125,36
65.6625,40
65.7125,29
65.7625,30
65.8125,32
65.8625,39
65.9125,27
65.9625,39
66.0125,30
66.0625,40
66.1125,45
66.1625,27
66.2125,31
66.2625,32
66.3125,34
66.3625,37
66.4125,32
66.4625,43
66.5125,39
66.5625,38
66.6125,29
66.6625,33
66.7125,39
66.7625,40
66.8125,36
66.8625,49
66.9125,30
66.9625,36
67.0125,36
67.0625,33
67.1125,36
67.1625,30
67.2125,27
67.2625,31
67.3125,37
67.3625,38
67.4125,27
67.4625,33
67.5125,43
67.5625,41
67.6125,36
67.6625,35
67.7125,36
67.7625,31
67.8125,36
67.8625,39
67.9125,45
67.9625,35
68.0125,36
68.0625,59
68.1125,40
68.1625,55
68.2125,55
68.2625,41
68.3125,58
68.3625,64
68.4125,47
68.4625,54
68.5125,41
68.5625,59
68.6125,49
68.6625,55
68.7125,49
68.7625,39
68.8125,35
68.8625,32
68.9125,39
68.9625,43
69.0125,49
69.0625,45
69.1125,46
69.1625,36
69.2125,41
69.2625,51
69.3125,40
69.3625,45
69.4125,55
69.4625,47
69.5125,55
69.5625,46
69.6125,53
69.6625,38
69.7125,43
69.7625,48
69.8125,51
69.8625,24
69.9125,33
69.9625,30